Folder: ag

File: tga.csv
1, 48.0
5, 40.0
9, 40.0
13, 48.0
17, 56.0
21, 40.0
25, 40.0
29, 40.0
33, 48.0
37, 48.0
41, 32.0
45, 40.0
49, 40.0
53, 48.0
57, 48.0
61, 40.0
65, 48.0
69, 40.0
73, 56.0
77, 40.0
81, 56.0
85, 40.0
89, 40.0
93, 48.0
97, 48.0
101, 40.0
105, 40.0
109, 40.0
113, 40.0
117, 48.0
121, 48.0
125, 48.0
129, 32.0
133, 40.0
137, 40.0
141, 48.0
145, 48.0
149, 48.0
153, 40.0
157, 48.0
161, 40.0
165, 40.0
169, 40.0
173, 40.0
177, 40.0
181, 48.0
185, 48.0
189, 48.0
193, 48.0
197, 40.0
201, 48.0
205, 40.0
209, 48.0
213, 40.0
217, 40.0
221, 48.0
225, 40.0
229, 40.0
233, 40.0
237, 40.0
241, 48.0
245, 40.0
249, 48.0
253, 48.0
257, 56.0
261, 48.0
265, 40.0
269, 48.0
273, 40.0
277, 40.0
281, 40.0
285, 40.0
289, 48.0
293, 40.0
297, 48.0
301, 48.0
305, 48.0
309, 40.0
313, 48.0
317, 40.0
321, 56.0
325, 40.0
329, 48.0
333, 48.0
337, 40.0
341, 48.0
345, 40.0
349, 40.0
353, 48.0
357, 40.0
361, 40.0
365, 48.0
369, 32.0
373, 40.0
377, 40.0
381, 48.0
385, 40.0
389, 40.0
393, 40.0
397, 48.0
401, 48.0
405, 40.0
409, 40.0
413, 56.0
417, 48.0
421, 40.0
425, 40.0
429, 40.0
433, 48.0
437, 48.0
441, 48.0
445, 40.0
449, 40.0
453, 48.0
457, 48.0
461, 40.0
465, 32.0
469, 40.0
473, 40.0
477, 48.0
481, 48.0
485, 56.0
489, 48.0
493, 48.0
497, 48.0
501, 40.0
505, 48.0
509, 48.0
513, 40.0
517, 40.0
521, 40.0
525, 48.0
529, 40.0
533, 40.0
537, 48.0
541, 40.0
545, 48.0
549, 40.0
553, 48.0
557, 48.0
561, 40.0
565, 48.0
569, 40.0
573, 48.0
577, 48.0
581, 40.0
585, 48.0
589, 40.0
593, 40.0
597, 56.0
601, 40.0
605, 48.0
609, 40.0
613, 40.0
617, 40.0
621, 48.0
625, 40.0
629, 40.0
633, 40.0
637, 40.0
641, 48.0
645, 40.0
649, 40.0
653, 40.0
657, 48.0
661, 48.0
665, 48.0
669, 40.0
673, 40.0
677, 48.0
681, 56.0
685, 48.0
689, 40.0
693, 48.0
697, 48.0
701, 40.0
705, 40.0
709, 32.0
713, 48.0
717, 40.0
721, 40.0
725, 40.0
729, 40.0
733, 40.0
737, 40.0
741, 40.0
745, 48.0
749, 48.0
753, 48.0
757, 48.0
761, 40.0
765, 48.0
769, 40.0
773, 40.0
777, 40.0
781, 40.0
785, 48.0
789, 48.0
793, 48.0
797, 40.0
801, 40.0
805, 48.0
809, 40.0
813, 40.0
817, 48.0
821, 48.0
825, 40.0
829, 40.0
833, 40.0
837, 40.0
841, 56.0
845, 40.0
849, 40.0
853, 40.0
857, 48.0
861, 48.0
865, 48.0
869, 48.0
873, 40.0
877, 40.0
881, 40.0
885, 48.0
889, 40.0
893, 40.0
897, 48.0
901, 40.0
905, 48.0
909, 48.0
913, 48.0
917, 40.0
921, 48.0
925, 40.0
929, 48.0
933, 48.0
937, 40.0
941, 40.0
945, 40.0
949, 40.0
953, 48.0
957, 40.0
961, 48.0
965, 40.0
969, 48.0
973, 40.0
977, 48.0
981, 40.0
985, 40.0
989, 40.0
993, 40.0
997, 48.0
1000, 48.0